<Bundle xmlns="http://hl7.org/fhir">
  <id value="cf96ffd9-fb38-479f-ba3c-5f3f36752fdb" />
  <meta>
    <profile value="http://hl7.org/fhir/us/vrdr/StructureDefinition/VRDR-Death-Certificate-Document" />
  </meta>
  <identifier>
    <value value="42" />
  </identifier>
  <type value="document" />
  <entry>
    <fullUrl value="urn:uuid:50e7e648-976e-41f0-b8e8-3e8deaa79260" />
    <resource>
      <Composition>
        <id value="50e7e648-976e-41f0-b8e8-3e8deaa79260" />
        <meta>
          <profile value="http://hl7.org/fhir/us/vrdr/StructureDefinition/VRDR-Death-Certificate" />
        </meta>
        <identifier>
          <value value="1" />
        </identifier>
        <status value="final" />
        <type>
          <coding>
            <system value="http://loinc.org" />
            <code value="64297-5" />
            <display value="Death certificate" />
          </coding>
        </type>
        <subject>
          <reference value="urn:uuid:0042d54e-25fe-426d-8a3e-d002369951d8" />
        </subject>
        <date value="2019-02-01T16:47:04-05:00" />
        <attester>
          <mode value="legal" />
          <time value="2019-01-29T16:48:06-05:00" />
          <party>
            <reference value="urn:uuid:c99651c4-7c84-499f-bb37-7db96f9929c4" />
          </party>
        </attester>
        <event>
          <code>
            <coding>
              <system value="http://snomed.info/sct" />
              <code value="308646001" />
              <display value="Death certification (procedure)" />
            </coding>
          </code>
          <detail>
            <reference value="urn:uuid:9bf77849-d029-4501-a24e-7acd999c0337" />
          </detail>
        </event>
        <section>
          <entry>
            <reference value="urn:uuid:0042d54e-25fe-426d-8a3e-d002369951d8" />
          </entry>
          <entry>
            <reference value="urn:uuid:c99651c4-7c84-499f-bb37-7db96f9929c4" />
          </entry>
          <entry>
            <reference value="urn:uuid:66d3d773-2056-4180-865d-ef0bb0eb13ef" />
          </entry>
          <entry>
            <reference value="urn:uuid:9bf77849-d029-4501-a24e-7acd999c0337" />
          </entry>
          <entry>
            <reference value="urn:uuid:6828566f-bfa8-40a9-8870-62f3c888de86" />
          </entry>
          <entry>
            <reference value="urn:uuid:b2b3e7ce-5abc-4f22-a76f-d6e39dc8991c" />
          </entry>
          <entry>
            <reference value="urn:uuid:e7f8c2e3-a865-48a2-8284-a7adc22e2372" />
          </entry>
          <entry>
            <reference value="urn:uuid:9d567f0e-553d-4a58-aa3c-22b3b64e4add" />
          </entry>
          <entry>
            <reference value="urn:uuid:9bebc631-70b1-4052-bb61-7909caa7f5d4" />
          </entry>
          <entry>
            <reference value="urn:uuid:20bc94bb-cdad-4daf-8e04-8304ea217e96" />
          </entry>
          <entry>
            <reference value="urn:uuid:8e4650ca-1d2a-4f73-a551-616fefd3e130" />
          </entry>
          <entry>
            <reference value="urn:uuid:e3328799-6392-4f6b-9db9-556a9b8a88d3" />
          </entry>
          <entry>
            <reference value="urn:uuid:5c0a0509-8297-4a53-a0ef-725daaaf9736" />
          </entry>
          <entry>
            <reference value="urn:uuid:826a3c27-c712-4c65-b454-46cc4ca76c99" />
          </entry>
          <entry>
            <reference value="urn:uuid:46c9ed22-34f6-4d40-bdfa-9b7d6b3e9da6" />
          </entry>
          <entry>
            <reference value="urn:uuid:5c3c297d-7c4e-4cfb-8b18-33d24941b0c5" />
          </entry>
          <entry>
            <reference value="urn:uuid:63cd1eb8-f975-407a-900e-856e538eb458" />
          </entry>
          <entry>
            <reference value="urn:uuid:50a147e5-e026-495c-a2a8-71538c56f329" />
          </entry>
          <entry>
            <reference value="urn:uuid:b8858f52-34a2-41ae-8943-ac8dcb2020dd" />
          </entry>
          <entry>
            <reference value="urn:uuid:3f406aff-fc70-41e4-bc80-65d4bbdae8b5" />
          </entry>
          <entry>
            <reference value="urn:uuid:54266078-489a-4133-a4e2-633269806304" />
          </entry>
          <entry>
            <reference value="urn:uuid:6cbb36fa-a453-4c6e-bb5f-3bd15874b94b" />
          </entry>
          <entry>
            <reference value="urn:uuid:4a122c51-878c-476d-ad49-543c50b71166" />
          </entry>
          <entry>
            <reference value="urn:uuid:8094a2a5-5725-4c97-9b0e-86bcc6388cdd" />
          </entry>
          <entry>
            <reference value="urn:uuid:437fe2c1-7701-4b72-a9f3-bc6e7575508e" />
          </entry>
          <entry>
            <reference value="urn:uuid:e84c4aaf-7ba8-468a-8aea-227860574b9a" />
          </entry>
          <entry>
            <reference value="urn:uuid:ef0a627a-0d67-469d-a043-f20aaa56f6dd" />
          </entry>
          <entry>
            <reference value="urn:uuid:6f54fc94-b8e0-4be3-8bda-d5bfe3935342" />
          </entry>
          <entry>
            <reference value="urn:uuid:14bca771-7c7c-4c62-9faa-b7dccbbc1690" />
          </entry>
          <entry>
            <reference value="urn:uuid:90989981-753d-4443-b137-7feac80d7271" />
          </entry>
          <entry>
            <reference value="urn:uuid:d1113c5e-ccba-437e-9fbd-64ebfdcfb617" />
          </entry>
          <entry>
            <reference value="urn:uuid:0de58d4e-6306-4bf9-8d8f-a53d465e0816" />
          </entry>
        </section>
      </Composition>
    </resource>
  </entry>
  <entry>
    <fullUrl value="urn:uuid:0042d54e-25fe-426d-8a3e-d002369951d8" />
    <resource>
      <Patient>
        <id value="0042d54e-25fe-426d-8a3e-d002369951d8" />
        <meta>
          <profile value="http://hl7.org/fhir/us/vrdr/StructureDefinition/VRDR-Decedent" />
        </meta>
        <extension url="http://hl7.org/fhir/us/core/StructureDefinition/us-core-birthsex">
          <valueCode value="F" />
        </extension>
        <extension url="http://hl7.org/fhir/us/core/StructureDefinition/us-core-ethnicity">
          <extension url="ombCategory">
            <valueCoding>
              <system value="urn:oid:2.16.840.1.113883.6.238" />
              <code value="2135-2" />
              <display value="Hispanic or Latino" />
            </valueCoding>
          </extension>
          <extension url="detailed">
            <valueCoding>
              <system value="urn:oid:2.16.840.1.113883.6.238" />
              <code value="2180-8" />
              <display value="Puerto Rican" />
            </valueCoding>
          </extension>
          <extension url="text">
            <valueString value="Hispanic or Latino, Puerto Rican" />
          </extension>
        </extension>
        <extension url="http://hl7.org/fhir/us/core/StructureDefinition/us-core-race">
          <extension url="ombCategory">
            <valueCoding>
              <system value="urn:oid:2.16.840.1.113883.6.238" />
              <code value="2106-3" />
              <display value="White" />
            </valueCoding>
          </extension>
          <extension url="ombCategory">
            <valueCoding>
              <system value="urn:oid:2.16.840.1.113883.6.238" />
              <code value="2076-8" />
              <display value="Native Hawaiian or Other Pacific Islander" />
            </valueCoding>
          </extension>
          <extension url="detailed">
            <valueCoding>
              <system value="urn:oid:2.16.840.1.113883.6.238" />
              <code value="2079-2" />
              <display value="Native Hawaiian" />
            </valueCoding>
          </extension>
          <extension url="text">
            <valueString value="White, Native Hawaiian or Other Pacific Islander, Native Hawaiian" />
          </extension>
        </extension>
        <extension url="http://hl7.org/fhir/StructureDefinition/birthPlace">
          <valueAddress>
            <line value="1011 Example Street" />
            <line value="Line 2" />
            <city value="Bedford" />
            <district value="Middlesex" />
            <state value="Massachusetts" />
            <postalCode value="01730" />
            <country value="United States" />
          </valueAddress>
        </extension>
        <identifier>
          <type>
            <coding>
              <code value="SB" />
              <display value="Social Beneficiary Identifier" />
            </coding>
          </type>
          <system value="http://hl7.org/fhir/sid/us-ssn" />
          <value value="123456789" />
        </identifier>
        <name>
          <use value="official" />
          <family value="Last" />
          <given value="Example" />
          <given value="Something" />
          <given value="Middle" />
          <suffix value="Jr." />
        </name>
        <name>
          <use value="nickname" />
          <family value="LastNameAlias" />
          <given value="FirstNameAlias" />
          <given value="MiddleAlias" />
          <suffix value="Jr." />
        </name>
        <gender value="male" />
        <birthDate value="1940-02-19" />
        <address>
          <extension url="http://hl7.org/fhir/us/vrdr/StructureDefinition/Within-City-Limits-Indicator">
            <valueBoolean value="false" />
          </extension>
          <line value="101 Example Street" />
          <line value="Line 2" />
          <city value="Bedford" />
          <district value="Middlesex" />
          <state value="Massachusetts" />
          <postalCode value="01730" />
          <country value="United States" />
        </address>
        <maritalStatus>
          <coding>
            <system value="http://terminology.hl7.org/CodeSystem/v3-MaritalStatus" />
            <code value="S" />
            <display value="Never Married" />
          </coding>
        </maritalStatus>
      </Patient>
    </resource>
  </entry>
  <entry>
    <fullUrl value="urn:uuid:c99651c4-7c84-499f-bb37-7db96f9929c4" />
    <resource>
      <Practitioner>
        <id value="c99651c4-7c84-499f-bb37-7db96f9929c4" />
        <meta>
          <profile value="http://hl7.org/fhir/us/vrdr/StructureDefinition/VRDR-Certifier" />
        </meta>
        <name>
          <use value="official" />
          <family value="Last" />
          <given value="Doctor" />
          <given value="Middle" />
          <suffix value="Jr." />
        </name>
        <address>
          <line value="11 Example Street" />
          <line value="Line 2" />
          <city value="Bedford" />
          <district value="Middlesex" />
          <state value="Massachusetts" />
          <postalCode value="01730" />
          <country value="United States" />
        </address>
        <qualification>
          <identifier>
            <value value="789123456" />
          </identifier>
          <code>
            <coding>
              <system value="urn:oid:2.16.840.1.114222.4.11.7186" />
              <code value="3060" />
              <display value="Physicians and surgeons" />
            </coding>
          </code>
        </qualification>
      </Practitioner>
    </resource>
  </entry>
  <entry>
    <fullUrl value="urn:uuid:66d3d773-2056-4180-865d-ef0bb0eb13ef" />
    <resource>
      <Practitioner>
        <id value="66d3d773-2056-4180-865d-ef0bb0eb13ef" />
        <meta>
          <profile value="http://hl7.org/fhir/us/vrdr/StructureDefinition/VRDR-Mortician" />
        </meta>
        <name>
          <use value="official" />
          <family value="Last" />
          <given value="FD" />
          <given value="Middle" />
          <suffix value="Jr." />
        </name>
        <qualification>
          <identifier>
            <value value="9876543210" />
          </identifier>
        </qualification>
      </Practitioner>
    </resource>
  </entry>
  <entry>
    <fullUrl value="urn:uuid:9bf77849-d029-4501-a24e-7acd999c0337" />
    <resource>
      <Procedure>
        <id value="9bf77849-d029-4501-a24e-7acd999c0337" />
        <meta>
          <profile value="http://hl7.org/fhir/us/vrdr/StructureDefinition/VRDR-Death-Certification" />
        </meta>
        <status value="completed" />
        <category>
          <coding>
            <system value="http://snomed.info/sct" />
            <code value="103693007" />
            <display value="Diagnostic procedure" />
          </coding>
        </category>
        <code>
          <coding>
            <system value="http://snomed.info/sct" />
            <code value="308646001" />
            <display value="Death certification" />
          </coding>
        </code>
        <performedDateTime value="2019-01-29T16:48:06-05:00" />
        <performer>
          <function>
            <coding>
              <system value="http://snomed.info/sct" />
              <code value="434641000124105" />
              <display value="Physician" />
            </coding>
          </function>
          <actor>
            <reference value="urn:uuid:c99651c4-7c84-499f-bb37-7db96f9929c4" />
          </actor>
        </performer>
      </Procedure>
    </resource>
  </entry>
  <entry>
    <fullUrl value="urn:uuid:6828566f-bfa8-40a9-8870-62f3c888de86" />
    <resource>
      <Organization>
        <id value="6828566f-bfa8-40a9-8870-62f3c888de86" />
        <meta>
          <profile value="http://hl7.org/fhir/us/vrdr/StructureDefinition/VRDR-Interested-Party" />
        </meta>
        <identifier>
          <value value="1010101" />
        </identifier>
        <active value="true" />
        <type>
          <coding>
            <system value="http://terminology.hl7.org/CodeSystem/organization-type" />
            <code value="prov" />
            <display value="Healthcare Provider" />
          </coding>
        </type>
        <name value="Example Hospital" />
        <address>
          <line value="10 Example Street" />
          <line value="Line 2" />
          <city value="Bedford" />
          <district value="Middlesex" />
          <state value="Massachusetts" />
          <postalCode value="01730" />
          <country value="United States" />
        </address>
      </Organization>
    </resource>
  </entry>
  <entry>
    <fullUrl value="urn:uuid:b2b3e7ce-5abc-4f22-a76f-d6e39dc8991c" />
    <resource>
      <Organization>
        <id value="b2b3e7ce-5abc-4f22-a76f-d6e39dc8991c" />
        <meta>
          <profile value="http://hl7.org/fhir/us/vrdr/StructureDefinition/VRDR-Funeral-Home" />
        </meta>
        <type>
          <coding>
            <code value="bus" />
            <display value="Non-Healthcare Business or Corporation" />
          </coding>
        </type>
        <name value="Smith Funeral Home" />
        <address>
          <line value="1011010 Example Street" />
          <line value="Line 2" />
          <city value="Bedford" />
          <district value="Middlesex" />
          <state value="Massachusetts" />
          <postalCode value="01730" />
          <country value="United States" />
        </address>
      </Organization>
    </resource>
  </entry>
  <entry>
    <fullUrl value="urn:uuid:e7f8c2e3-a865-48a2-8284-a7adc22e2372" />
    <resource>
      <PractitionerRole>
        <id value="e7f8c2e3-a865-48a2-8284-a7adc22e2372" />
        <meta>
          <profile value="http://hl7.org/fhir/us/vrdr/StructureDefinition/VRDR-Funeral-Service-Licensee" />
        </meta>
        <practitioner>
          <reference value="urn:uuid:66d3d773-2056-4180-865d-ef0bb0eb13ef" />
        </practitioner>
        <organization>
          <reference value="urn:uuid:b2b3e7ce-5abc-4f22-a76f-d6e39dc8991c" />
        </organization>
      </PractitionerRole>
    </resource>
  </entry>
  <entry>
    <fullUrl value="urn:uuid:9d567f0e-553d-4a58-aa3c-22b3b64e4add" />
    <resource>
      <List>
        <id value="9d567f0e-553d-4a58-aa3c-22b3b64e4add" />
        <meta>
          <profile value="http://hl7.org/fhir/us/vrdr/StructureDefinition/VRDR-Cause-of-Death-Pathway" />
        </meta>
        <status value="current" />
        <mode value="snapshot" />
        <source>
          <reference value="urn:uuid:c99651c4-7c84-499f-bb37-7db96f9929c4" />
        </source>
        <orderedBy>
          <coding>
            <code value="priority" />
          </coding>
        </orderedBy>
        <entry>
          <item>
            <reference value="urn:uuid:e3328799-6392-4f6b-9db9-556a9b8a88d3" />
          </item>
        </entry>
        <entry>
          <item>
            <reference value="urn:uuid:5c0a0509-8297-4a53-a0ef-725daaaf9736" />
          </item>
        </entry>
        <entry>
          <item>
            <reference value="urn:uuid:826a3c27-c712-4c65-b454-46cc4ca76c99" />
          </item>
        </entry>
        <entry>
          <item>
            <reference value="urn:uuid:46c9ed22-34f6-4d40-bdfa-9b7d6b3e9da6" />
          </item>
        </entry>
      </List>
    </resource>
  </entry>
  <entry>
    <fullUrl value="9bebc631-70b1-4052-bb61-7909caa7f5d4" />
    <resource>
      <Location>
        <id value="9bebc631-70b1-4052-bb61-7909caa7f5d4" />
        <meta>
          <profile value="http://hl7.org/fhir/us/vrdr/StructureDefinition/VRDR-Disposition-Location" />
        </meta>
        <name value="Bedford Cemetery" />
        <address>
          <line value="603 Example Street" />
          <line value="Line 2" />
          <city value="Bedford" />
          <district value="Middlesex" />
          <state value="Massachusetts" />
          <postalCode value="01730" />
          <country value="United States" />
        </address>
      </Location>
    </resource>
  </entry>
  <entry>
    <fullUrl value="urn:uuid:20bc94bb-cdad-4daf-8e04-8304ea217e96" />
    <resource>
      <Observation>
        <id value="20bc94bb-cdad-4daf-8e04-8304ea217e96" />
        <meta>
          <profile value="http://hl7.org/fhir/us/vrdr/StructureDefinition/VRDR-Manner-of-Death" />
        </meta>
        <status value="final" />
        <code>
          <coding>
            <system value="http://loinc.org" />
            <code value="69449-7" />
            <display value="Manner of death" />
          </coding>
        </code>
        <subject>
          <reference value="urn:uuid:0042d54e-25fe-426d-8a3e-d002369951d8" />
        </subject>
        <performer>
          <reference value="urn:uuid:c99651c4-7c84-499f-bb37-7db96f9929c4" />
        </performer>
        <valueCodeableConcept>
          <coding>
            <code value="7878000" />
            <display value="Accident" />
          </coding>
        </valueCodeableConcept>
      </Observation>
    </resource>
  </entry>
  <entry>
    <fullUrl value="urn:uuid:8e4650ca-1d2a-4f73-a551-616fefd3e130" />
    <resource>
      <Condition>
        <id value="8e4650ca-1d2a-4f73-a551-616fefd3e130" />
        <meta>
          <profile value="http://hl7.org/fhir/us/vrdr/StructureDefinition/VRDR-Condition-Contributing-To-Death" />
        </meta>
        <code>
          <text value="Example Contributing Conditions" />
        </code>
        <subject>
          <reference value="urn:uuid:0042d54e-25fe-426d-8a3e-d002369951d8" />
        </subject>
        <asserter>
          <reference value="urn:uuid:c99651c4-7c84-499f-bb37-7db96f9929c4" />
        </asserter>
      </Condition>
    </resource>
  </entry>
  <entry>
    <fullUrl value="urn:uuid:e3328799-6392-4f6b-9db9-556a9b8a88d3" />
    <resource>
      <Condition>
        <id value="e3328799-6392-4f6b-9db9-556a9b8a88d3" />
        <meta>
          <profile value="http://hl7.org/fhir/us/vrdr/StructureDefinition/VRDR-Cause-Of-Death-Condition" />
        </meta>
        <code>
          <coding>
            <system value="http://hl7.org/fhir/sid/icd-10" />
            <code value="I21.0" />
            <display value="Acute transmural myocardial infarction of anterior wall" />
          </coding>
          <text value="Rupture of myocardium" />
        </code>
        <subject>
          <reference value="urn:uuid:0042d54e-25fe-426d-8a3e-d002369951d8" />
        </subject>
        <onsetString value="minutes" />
        <asserter>
          <reference value="urn:uuid:c99651c4-7c84-499f-bb37-7db96f9929c4" />
        </asserter>
      </Condition>
    </resource>
  </entry>
  <entry>
    <fullUrl value="urn:uuid:5c0a0509-8297-4a53-a0ef-725daaaf9736" />
    <resource>
      <Condition>
        <id value="5c0a0509-8297-4a53-a0ef-725daaaf9736" />
        <meta>
          <profile value="http://hl7.org/fhir/us/vrdr/StructureDefinition/VRDR-Cause-Of-Death-Condition" />
        </meta>
        <code>
          <coding>
            <system value="http://hl7.org/fhir/sid/icd-10" />
            <code value="I21.9" />
            <display value="Acute myocardial infarction, unspecified" />
          </coding>
          <text value="Acute myocardial infarction" />
        </code>
        <subject>
          <reference value="urn:uuid:0042d54e-25fe-426d-8a3e-d002369951d8" />
        </subject>
        <onsetString value="6 days" />
        <asserter>
          <reference value="urn:uuid:c99651c4-7c84-499f-bb37-7db96f9929c4" />
        </asserter>
      </Condition>
    </resource>
  </entry>
  <entry>
    <fullUrl value="urn:uuid:826a3c27-c712-4c65-b454-46cc4ca76c99" />
    <resource>
      <Condition>
        <id value="826a3c27-c712-4c65-b454-46cc4ca76c99" />
        <meta>
          <profile value="http://hl7.org/fhir/us/vrdr/StructureDefinition/VRDR-Cause-Of-Death-Condition" />
        </meta>
        <code>
          <text value="Coronary artery thrombosis" />
        </code>
        <subject>
          <reference value="urn:uuid:0042d54e-25fe-426d-8a3e-d002369951d8" />
        </subject>
        <onsetString value="5 years" />
        <asserter>
          <reference value="urn:uuid:c99651c4-7c84-499f-bb37-7db96f9929c4" />
        </asserter>
      </Condition>
    </resource>
  </entry>
  <entry>
    <fullUrl value="urn:uuid:46c9ed22-34f6-4d40-bdfa-9b7d6b3e9da6" />
    <resource>
      <Condition>
        <id value="46c9ed22-34f6-4d40-bdfa-9b7d6b3e9da6" />
        <meta>
          <profile value="http://hl7.org/fhir/us/vrdr/StructureDefinition/VRDR-Cause-Of-Death-Condition" />
        </meta>
        <code>
          <text value="Atherosclerotic coronary artery disease" />
        </code>
        <subject>
          <reference value="urn:uuid:0042d54e-25fe-426d-8a3e-d002369951d8" />
        </subject>
        <onsetString value="7 years" />
        <asserter>
          <reference value="urn:uuid:c99651c4-7c84-499f-bb37-7db96f9929c4" />
        </asserter>
      </Condition>
    </resource>
  </entry>
  <entry>
    <fullUrl value="urn:uuid:5c3c297d-7c4e-4cfb-8b18-33d24941b0c5" />
    <resource>
      <RelatedPerson>
        <id value="5c3c297d-7c4e-4cfb-8b18-33d24941b0c5" />
        <meta>
          <profile value="http://hl7.org/fhir/us/vrdr/StructureDefinition/VRDR-Decedent-Father" />
        </meta>
        <patient>
          <reference value="urn:uuid:0042d54e-25fe-426d-8a3e-d002369951d8" />
        </patient>
        <relationship>
          <coding>
            <code value="FTH" />
          </coding>
        </relationship>
        <name>
          <family value="Last" />
          <given value="Father" />
          <given value="Middle" />
          <suffix value="Sr." />
        </name>
      </RelatedPerson>
    </resource>
  </entry>
  <entry>
    <fullUrl value="urn:uuid:63cd1eb8-f975-407a-900e-856e538eb458" />
    <resource>
      <RelatedPerson>
        <id value="63cd1eb8-f975-407a-900e-856e538eb458" />
        <meta>
          <profile value="http://hl7.org/fhir/us/vrdr/StructureDefinition/VRDR-Decedent-Mother" />
        </meta>
        <patient>
          <reference value="urn:uuid:0042d54e-25fe-426d-8a3e-d002369951d8" />
        </patient>
        <relationship>
          <coding>
            <code value="MTH" />
          </coding>
        </relationship>
        <name>
          <family value="Maiden" />
          <given value="Mother" />
          <given value="Middle" />
          <suffix value="Dr." />
        </name>
      </RelatedPerson>
    </resource>
  </entry>
  <entry>
    <fullUrl value="urn:uuid:50a147e5-e026-495c-a2a8-71538c56f329" />
    <resource>
      <RelatedPerson>
        <id value="50a147e5-e026-495c-a2a8-71538c56f329" />
        <meta>
          <profile value="http://hl7.org/fhir/us/vrdr/StructureDefinition/VRDR-Decedent-Spouse" />
        </meta>
        <patient>
          <reference value="urn:uuid:0042d54e-25fe-426d-8a3e-d002369951d8" />
        </patient>
        <relationship>
          <coding>
            <code value="SPS" />
          </coding>
        </relationship>
        <name>
          <family value="Last" />
          <given value="Spouse" />
          <given value="Middle" />
          <suffix value="Ph.D." />
        </name>
      </RelatedPerson>
    </resource>
  </entry>
  <entry>
    <fullUrl value="urn:uuid:b8858f52-34a2-41ae-8943-ac8dcb2020dd" />
    <resource>
      <Observation>
        <id value="b8858f52-34a2-41ae-8943-ac8dcb2020dd" />
        <meta>
          <profile value="http://hl7.org/fhir/us/vrdr/StructureDefinition/VRDR-Decedent-Education-Level" />
        </meta>
        <status value="final" />
        <code>
          <coding>
            <system value="http://loinc.org" />
            <code value="80913-7" />
            <display value="Highest level of education" />
          </coding>
        </code>
        <subject>
          <reference value="urn:uuid:0042d54e-25fe-426d-8a3e-d002369951d8" />
        </subject>
        <valueCodeableConcept>
          <coding>
            <system value="http://terminology.hl7.org/CodeSystem/v3-EducationLevel" />
            <code value="BD" />
            <display value="College or baccalaureate degree complete" />
          </coding>
        </valueCodeableConcept>
      </Observation>
    </resource>
  </entry>
  <entry>
    <fullUrl value="urn:uuid:3f406aff-fc70-41e4-bc80-65d4bbdae8b5" />
    <resource>
      <Observation>
        <id value="3f406aff-fc70-41e4-bc80-65d4bbdae8b5" />
        <meta>
          <profile value="http://hl7.org/fhir/us/vrdr/StructureDefinition/VRDR-Birth-Record-Identifier" />
        </meta>
        <status value="final" />
        <code>
          <coding>
            <code value="BR" />
          </coding>
        </code>
        <subject>
          <reference value="urn:uuid:0042d54e-25fe-426d-8a3e-d002369951d8" />
        </subject>
        <valueString value="4242123" />
        <component>
          <code>
            <coding>
              <system value="http://loinc.org" />
              <code value="21842-0" />
              <display value="Birthplace" />
            </coding>
          </code>
          <valueCodeableConcept>
            <coding>
              <system value="urn:iso:std:iso:3166:-2" />
              <code value="MA" />
              <display value="Massachusetts" />
            </coding>
          </valueCodeableConcept>
        </component>
        <component>
          <code>
            <coding>
              <system value="http://loinc.org" />
              <code value="21112-8" />
              <display value="Birth date" />
            </coding>
          </code>
          <valueDateTime value="1940" />
        </component>
      </Observation>
    </resource>
  </entry>
  <entry>
    <fullUrl value="urn:uuid:54266078-489a-4133-a4e2-633269806304" />
    <resource>
      <Observation>
        <id value="54266078-489a-4133-a4e2-633269806304" />
        <meta>
          <profile value="http://hl7.org/fhir/us/vrdr/StructureDefinition/VRDR-Decedent-Employment-History" />
        </meta>
        <status value="final" />
        <code>
          <coding>
            <system value="http://loinc.org" />
            <code value="74165-2" />
            <display value="History of employment status" />
          </coding>
        </code>
        <subject>
          <reference value="urn:uuid:0042d54e-25fe-426d-8a3e-d002369951d8" />
        </subject>
        <component>
          <code>
            <coding>
              <system value="http://loinc.org" />
              <code value="21847-9" />
              <display value="Usual occupation" />
            </coding>
          </code>
          <valueString value="secretary" />
        </component>
        <component>
          <code>
            <coding>
              <system value="http://loinc.org" />
              <code value="21844-6" />
              <display value="Usual industry" />
            </coding>
          </code>
          <valueString value="State agency" />
        </component>
        <component>
          <code>
            <coding>
              <system value="http://loinc.org" />
              <code value="55280-2" />
              <display value="Military service" />
            </coding>
          </code>
          <valueCodeableConcept>
            <coding>
              <system value="http://terminology.hl7.org/CodeSystem/v2-0136" />
              <code value="Y" />
              <display value="Yes" />
            </coding>
          </valueCodeableConcept>
        </component>
      </Observation>
    </resource>
  </entry>
  <entry>
    <fullUrl value="urn:uuid:6cbb36fa-a453-4c6e-bb5f-3bd15874b94b" />
    <resource>
      <Observation>
        <id value="6cbb36fa-a453-4c6e-bb5f-3bd15874b94b" />
        <meta>
          <profile value="http://hl7.org/fhir/us/vrdr/StructureDefinition/VRDR-Decedent-Disposition-Method" />
        </meta>
        <extension url="http://hl7.org/fhir/us/vrdr/StructureDefinition/VRDR-Disposition-Location">
          <valueReference>
            <reference value="urn:uuid:9bebc631-70b1-4052-bb61-7909caa7f5d4" />
          </valueReference>
        </extension>
        <status value="final" />
        <code>
          <coding>
            <system value="http://loinc.org" />
            <code value="80905-3" />
            <display value="Body disposition method" />
          </coding>
        </code>
        <subject>
          <reference value="urn:uuid:0042d54e-25fe-426d-8a3e-d002369951d8" />
        </subject>
        <performer>
          <reference value="urn:uuid:66d3d773-2056-4180-865d-ef0bb0eb13ef" />
        </performer>
        <valueCodeableConcept>
          <coding>
            <system value="http://snomed.info/sct" />
            <code value="449971000124106" />
            <display value="Burial" />
          </coding>
        </valueCodeableConcept>
      </Observation>
    </resource>
  </entry>
  <entry>
    <fullUrl value="urn:uuid:4a122c51-878c-476d-ad49-543c50b71166" />
    <resource>
      <Observation>
        <id value="4a122c51-878c-476d-ad49-543c50b71166" />
        <meta>
          <profile value="http://hl7.org/fhir/us/vrdr/StructureDefinition/VRDR-Autopsy-Performed-Indicator" />
        </meta>
        <status value="final" />
        <code>
          <coding>
            <system value="http://loinc.org" />
            <code value="85699-7" />
            <display value="Autopsy was performed" />
          </coding>
        </code>
        <subject>
          <reference value="urn:uuid:0042d54e-25fe-426d-8a3e-d002369951d8" />
        </subject>
        <valueCodeableConcept>
          <coding>
            <system value="http://terminology.hl7.org/CodeSystem/v2-0136" />
            <code value="Y" />
            <display value="Yes" />
          </coding>
        </valueCodeableConcept>
        <component>
          <code>
            <coding>
              <system value="http://loinc.org" />
              <code value="69436-4" />
              <display value="Autopsy results available" />
            </coding>
          </code>
          <valueCodeableConcept>
            <coding>
              <system value="http://terminology.hl7.org/CodeSystem/v2-0136" />
              <code value="Y" />
              <display value="Yes" />
            </coding>
          </valueCodeableConcept>
        </component>
      </Observation>
    </resource>
  </entry>
  <entry>
    <fullUrl value="urn:uuid:8094a2a5-5725-4c97-9b0e-86bcc6388cdd" />
    <resource>
      <Observation>
        <id value="8094a2a5-5725-4c97-9b0e-86bcc6388cdd" />
        <meta>
          <profile value="http://hl7.org/fhir/us/vrdr/StructureDefinition/VRDR-Decedent-Age" />
        </meta>
        <status value="final" />
        <code>
          <coding>
            <system value="http://loinc.org" />
            <code value="30525-0" />
            <display value="Age" />
          </coding>
        </code>
        <subject>
          <reference value="urn:uuid:0042d54e-25fe-426d-8a3e-d002369951d8" />
        </subject>
        <valueQuantity>
          <value value="79" />
          <unit value="a" />
        </valueQuantity>
      </Observation>
    </resource>
  </entry>
  <entry>
    <fullUrl value="urn:uuid:437fe2c1-7701-4b72-a9f3-bc6e7575508e" />
    <resource>
      <Observation>
        <id value="437fe2c1-7701-4b72-a9f3-bc6e7575508e" />
        <meta>
          <profile value="http://hl7.org/fhir/us/vrdr/StructureDefinition/VRDR-Decedent-Pregnancy" />
        </meta>
        <status value="final" />
        <code>
          <coding>
            <system value="http://loinc.org" />
            <code value="69442-2" />
            <display value="Timing of recent pregnancy in relation to death" />
          </coding>
        </code>
        <subject>
          <reference value="urn:uuid:0042d54e-25fe-426d-8a3e-d002369951d8" />
        </subject>
        <valueCodeableConcept>
          <coding>
            <system value="http://hl7.org/fhir/v3/NullFlavor" />
            <code value="NA" />
            <display value="not applicable" />
          </coding>
        </valueCodeableConcept>
      </Observation>
    </resource>
  </entry>
  <entry>
    <fullUrl value="urn:uuid:e84c4aaf-7ba8-468a-8aea-227860574b9a" />
    <resource>
      <Observation>
        <id value="e84c4aaf-7ba8-468a-8aea-227860574b9a" />
        <meta>
          <profile value="http://hl7.org/fhir/us/vrdr/StructureDefinition/VRDR-Decedent-Transportation-Role" />
        </meta>
        <status value="final" />
        <code>
          <coding>
            <system value="http://loinc.org" />
            <code value="69451-3" />
            <display value="Transportation role of decedent " />
          </coding>
        </code>
        <subject>
          <reference value="urn:uuid:0042d54e-25fe-426d-8a3e-d002369951d8" />
        </subject>
        <valueCodeableConcept>
          <coding>
            <system value="urn:oid:2.16.840.1.114222.4.11.6005" />
            <code value="257500003" />
            <display value="Passenger" />
          </coding>
        </valueCodeableConcept>
      </Observation>
    </resource>
  </entry>
  <entry>
    <fullUrl value="urn:uuid:ef0a627a-0d67-469d-a043-f20aaa56f6dd" />
    <resource>
      <Observation>
        <id value="ef0a627a-0d67-469d-a043-f20aaa56f6dd" />
        <meta>
          <profile value="http://hl7.org/fhir/us/vrdr/StructureDefinition/VRDR-Examiner-Contacted" />
        </meta>
        <status value="final" />
        <code>
          <coding>
            <system value="http://loinc.org" />
            <code value="74497-9" />
            <display value="Medical examiner or coroner was contacted" />
          </coding>
        </code>
        <subject>
          <reference value="urn:uuid:0042d54e-25fe-426d-8a3e-d002369951d8" />
        </subject>
        <valueBoolean value="false" />
      </Observation>
    </resource>
  </entry>
  <entry>
    <fullUrl value="urn:uuid:6f54fc94-b8e0-4be3-8bda-d5bfe3935342" />
    <resource>
      <Observation>
        <id value="6f54fc94-b8e0-4be3-8bda-d5bfe3935342" />
        <meta>
          <profile value="http://hl7.org/fhir/us/vrdr/StructureDefinition/VRDR-Tobacco-Use-Contributed-To-Death" />
        </meta>
        <status value="final" />
        <code>
          <coding>
            <system value="http://loinc.org" />
            <code value="69443-0" />
            <display value="Did tobacco use contribute to death" />
          </coding>
        </code>
        <subject>
          <reference value="urn:uuid:0042d54e-25fe-426d-8a3e-d002369951d8" />
        </subject>
        <valueCodeableConcept>
          <coding>
            <system value="http://snomed.info/sct" />
            <code value="373066001" />
            <display value="Yes" />
          </coding>
        </valueCodeableConcept>
      </Observation>
    </resource>
  </entry>
  <entry>
    <fullUrl value="urn:uuid:14bca771-7c7c-4c62-9faa-b7dccbbc1690" />
    <resource>
      <Location>
        <id value="14bca771-7c7c-4c62-9faa-b7dccbbc1690" />
        <meta>
          <profile value="http://hl7.org/fhir/us/vrdr/StructureDefinition/VRDR-Injury-Location" />
        </meta>
        <name value="Example Injury Location Name" />
        <description value="Example Injury Location Description" />
        <address>
          <line value="781 Example Street" />
          <line value="Line 2" />
          <city value="Bedford" />
          <district value="Middlesex" />
          <state value="Massachusetts" />
          <postalCode value="01730" />
          <country value="United States" />
        </address>
      </Location>
    </resource>
  </entry>
  <entry>
    <fullUrl value="urn:uuid:90989981-753d-4443-b137-7feac80d7271" />
    <resource>
      <Observation>
        <id value="90989981-753d-4443-b137-7feac80d7271" />
        <meta>
          <profile value="http://hl7.org/fhir/us/vrdr/StructureDefinition/VRDR-Injury-Incident" />
        </meta>
        <status value="final" />
        <code>
          <coding>
            <system value="http://loinc.org" />
            <code value="11374-6" />
            <display value="Injury incident description" />
          </coding>
        </code>
        <subject>
          <reference value="urn:uuid:0042d54e-25fe-426d-8a3e-d002369951d8" />
        </subject>
        <effectiveDateTime value="2018-02-19T16:48:06-05:00" />
        <component>
          <code>
            <coding>
              <system value="http://loinc.org" />
              <code value="69444-8" />
              <display value="Did death result from injury at work" />
            </coding>
          </code>
          <valueCodeableConcept>
            <coding>
              <system value="http://terminology.hl7.org/CodeSystem/v2-0136" />
              <code value="N" />
              <display value="No" />
            </coding>
          </valueCodeableConcept>
        </component>
        <component>
          <code>
            <coding>
              <system value="http://loinc.org" />
              <code value="69450-5" />
              <display value="Place of injury Facility" />
            </coding>
          </code>
          <valueString value="home" />
        </component>
      </Observation>
    </resource>
  </entry>
  <entry>
    <fullUrl value="urn:uuid:d1113c5e-ccba-437e-9fbd-64ebfdcfb617" />
    <resource>
      <Location>
        <id value="d1113c5e-ccba-437e-9fbd-64ebfdcfb617" />
        <meta>
          <profile value="http://hl7.org/fhir/us/vrdr/StructureDefinition/VRDR-Death-Location" />
        </meta>
        <name value="Example Death Location Name" />
        <description value="Example Death Location Description" />
        <address>
          <line value="671 Example Street" />
          <line value="Line 2" />
          <city value="Bedford" />
          <district value="Middlesex" />
          <state value="Massachusetts" />
          <postalCode value="01730" />
          <country value="United States" />
        </address>
      </Location>
    </resource>
  </entry>
  <entry>
    <fullUrl value="urn:uuid:0de58d4e-6306-4bf9-8d8f-a53d465e0816" />
    <resource>
      <Observation>
        <id value="0de58d4e-6306-4bf9-8d8f-a53d465e0816" />
        <meta>
          <profile value="http://hl7.org/fhir/us/vrdr/StructureDefinition/VRDR-Death-Date" />
        </meta>
        <status value="final" />
        <code>
          <coding>
            <system value="http://loinc.org" />
            <code value="81956-5" />
            <display value="Date and time of death" />
          </coding>
        </code>
        <subject>
          <reference value="urn:uuid:0042d54e-25fe-426d-8a3e-d002369951d8" />
        </subject>
        <effectiveDateTime value="2018-02-19T16:48:06-05:00" />
        <performer>
          <reference value="urn:uuid:c99651c4-7c84-499f-bb37-7db96f9929c4" />
        </performer>
        <component>
          <code>
            <coding>
              <system value="http://loinc.org" />
              <code value="80616-6" />
              <display value="Date and time pronounced dead" />
            </coding>
          </code>
          <valueDateTime value="2018-02-20T16:48:06-05:00" />
        </component>
      </Observation>
    </resource>
  </entry>
</Bundle>


